wavelength,intensity
4618.25,33221.73
4620.5,32747.95
4622.75,32424.23
4625,32190.19
4627.25,31962.48
4629.5,31851.88
4631.75,31499.44
4634,31287.78
4636.26,31248.16
4638.51,31025.04
4640.76,31114.8
4643.01,31002.86
4645.26,30797.35
4647.51,30907.6
4649.76,30799.95
4652.01,30509.29
4654.26,30388.26
4656.51,30435.83
4658.76,30371.81
4661.01,30396.8
4663.26,30359.67
4665.51,30128.02
4667.76,29817.18
4670.01,29624.51
4672.26,29561.21
4674.52,29551.02
4676.77,29559.64
4679.02,29553.19
4681.27,29478.91
4683.52,29344.76
4685.77,29210.55
4688.02,29171.81
4690.27,29330.79
4692.52,29317.51
4694.77,29203.28
4697.02,29350
4699.27,29375.67
4701.52,29291.97
4703.77,29294.24
4706.02,29461.18
4708.27,29668.18
4710.53,29682.29
4712.78,29656.49
4715.03,29757.3
4717.28,29833.42
4719.53,29956.6
4721.78,30168.58
4724.03,30356.17
4726.28,30435.91
4728.53,30480.46
4730.78,30614.37
4733.03,30826.84
4735.28,31076.56
4737.53,31422.98
4739.78,31553.38
4742.03,31584.61
4744.28,31672.28
4746.54,31718.92
4748.79,31863.48
4751.04,31788.29
4753.29,31673.05
4755.54,31843.92
4757.79,31676.31
4760.04,31647.79
4762.29,31544.16
4764.54,31026.41
4766.79,30787.76
4769.04,30544.62
4771.29,30387.57
4773.54,30341.5
4775.79,30041.43
4778.04,29784.56
4780.29,29578.25
4782.55,29285.87
4784.8,28977.96
4787.05,28999.45
4789.3,28889.32
4791.55,28591.72
4793.8,28367.66
4796.05,28145.91
4798.3,28035.62
4800.55,27963.75
4802.8,27824.26
4805.05,27645.41
4807.3,27411.66
4809.55,27343.64
4811.8,27378.3
4814.05,27243.97
4816.3,27339.04
4818.56,27352.65
4820.81,27218.93
4823.06,27240.15
4825.31,27371.63
4827.56,27381.79
4829.81,27325.17
4832.06,27350.51
4834.31,27404.14
4836.56,27421.02
4838.81,27327.39
4841.06,27152.67
4843.31,26988.88
4845.56,26601.01
4847.81,26429.76
4850.06,26487.22
4852.31,26335.36
4854.57,26328.56
4856.82,26217.55
4859.07,25961.79
4861.32,25807.4
4863.57,25780.38
4865.82,25544.58
4868.07,25376.46
4870.32,25445.54
4872.57,25260.17
4874.82,25195.04
4877.07,25218.96
4879.32,25263.16
4881.57,25478.75
4883.82,25668.41
4886.07,25752.4
4888.32,25833.46
4890.57,25968.89
4892.83,25943.56
4895.08,25977.58
4897.33,26093.94
4899.58,26136.77
4901.83,26201.22
4904.08,26254.67
4906.33,26314.03
4908.58,26385.42
4910.83,26356.43
4913.08,26350.61
4915.33,26289.84
4917.58,26190.24
4919.83,26200.79
4922.08,26031.32
4924.33,25831.62
4926.58,25807.03
4928.84,25852.62
4931.09,25709.51
4933.34,25828.62
4935.59,25919.99
4937.84,25595.81
4940.09,25619.29
4942.34,25713.29
4944.59,25703.01
4946.84,25691.77
4949.09,25773.94
4951.34,25945.72
4953.59,25914.7
4955.84,25783.01
4958.09,25995.45
4960.34,26063.47
4962.59,26251.68
4964.85,26507.98
4967.1,26400.49
4969.35,26548.47
4971.6,26725.64
4973.85,26857.96
4976.1,27096.82
4978.35,27110.48
4980.6,27314.77
4982.85,27588.45
4985.1,27599.74
4987.35,27720.94
4989.6,27822.69
4991.85,27869.24
4994.1,27969.71
4996.35,28166.99
4998.6,28461.95
5000.86,28681.11
5003.11,28843.88
5005.36,29163.54
5007.61,29465.33
5009.86,29631.82
5012.11,29863.85
5014.36,30297.02
5016.61,30451.55
5018.86,30675.04
5021.11,31010.61
5023.36,31124.73
5025.61,31074.43
5027.86,30944.35
5030.11,30857.73
5032.36,30833.68
5034.61,30713.41
5036.87,30573.73
5039.12,30353.39
5041.37,30043.12
5043.62,29837.43
5045.87,29703.84
5048.12,29417.68
5050.37,28980.27
5052.62,28654.78
5054.87,28233.21
5057.12,27815.78
5059.37,27571.43
5061.62,27385.59
5063.87,27045.59
5066.12,26912.53
5068.37,26851.52
5070.62,26476.34
5072.88,26239.94
5075.13,26007.58
5077.38,25826.07
5079.63,25791.22
5081.88,25551.18
5084.13,25475.7
5086.38,25443.87
5088.63,25208.81
5090.88,25067.45
5093.13,24846.93
5095.38,24619.2
5097.63,24619.09
5099.88,24777.88
5102.13,24583.8
5104.38,24394.72
5106.63,24399.18
5108.89,24195.09
5111.14,24127.34
5113.39,24054.85
5115.64,23850.78
5117.89,23759.66
5120.14,23798.42
5122.39,23728.44
5124.64,23655.1
5126.89,23696.21
5129.14,23535.57
5131.39,23455.89
5133.64,23312.05
5135.89,22927.34
5138.14,22676.26
5140.39,21494.09
5142.64,22001.14
5144.89,24747.36
5147.15,23450.18
5149.4,22398.14
5151.65,21950.8
5153.9,21469.04
5156.15,22716.52
5158.4,22975.12
5160.65,22764.8
5162.9,23143.8
5165.15,23408.11
5167.4,23361.97
5169.65,23315.54
5171.9,23430.19
5174.15,23501.31
5176.4,23578.09
5178.65,23642.46
5180.9,23618.65
5183.16,23521.1
5185.41,23589.42
5187.66,23627.81
5189.91,23614.04
5192.16,23762.71
5194.41,23892.73
5196.66,23941.62
5198.91,23991.59
5201.16,24080.3
5203.41,24083.48
5205.66,24057.95
5207.91,24114.37
5210.16,24285.18
5212.41,24484.4
5214.66,24444.88
5216.91,24427.79
5219.17,24666.53
5221.42,24719.24
5223.67,24713.8
5225.92,24782.24
5228.17,24817.68
5230.42,24640.04
5232.67,24715.66
5234.92,24846.93
5237.17,24730.71
5239.42,24647.59
5241.67,24626.19
5243.92,24542.48
5246.17,24451.79
5248.42,24530.18
5250.67,24505.83
5252.92,24396.62
5255.18,24315.41
5257.43,24281.49
5259.68,24228.74
5261.93,24193.11
5264.18,24235.39
5266.43,24308.52
5268.68,24283.2
5270.93,24238.42
5273.18,24266.39
5275.43,24338.42
5277.68,24292.7
5279.93,24260.47
5282.18,24338.62
5284.43,24459.18
5286.68,24553.01
5288.93,24546.74
5291.19,24342.39
5293.44,24014.3
5295.69,23908.09
5297.94,23842.06
5300.19,23794.19
5302.44,23865.49
5304.69,23857.86
5306.94,23722.35
5309.19,23592.47
5311.44,23518.46
5313.69,23323.48
5315.94,23261.03
5318.19,23257.72
5320.44,23139.54
5322.69,23046.48
5324.94,22880
5327.19,22748.25
5329.45,22712.83
5331.7,22575.65
5333.95,22559.83
5336.2,22565.14
5338.45,22514.77
5340.7,22597.95
5342.95,22511.23
5345.2,22397.33
5347.45,22496.89
5349.7,22692.46
5351.95,22684.64
5354.2,22667.44
5356.45,22771.56
5358.7,22734.32
5360.95,22753.47
5363.2,22767.68
5365.46,22728.4
5367.71,22777.84
5369.96,22795.47
5372.21,22699.98
5374.46,22533.02
5376.71,22393.69
5378.96,22276.53
5381.21,22113.17
5383.46,22053.34
5385.71,22237.6
5387.96,22170.98
5390.21,21970.98
5392.46,21908.65
5394.71,21960.26
5396.96,21852.15
5399.21,21821.39
5401.47,21881.52
5403.72,21774.07
5405.97,21734.43
5408.22,21653.73
5410.47,21508.14
5412.72,21409.59
5414.97,21282.19
5417.22,21270.57
5419.47,21253.54
5421.72,21035.55
5423.97,20964.08
5426.22,20991.23
5428.47,20920.3
5430.72,20755.93
5432.97,20793.04
5435.22,20777.67
5437.48,20601.21
5439.73,20460.68
5441.98,20472.85
5444.23,20471.48
5446.48,20469.2
5448.73,20499.89
5450.98,20286.62
5453.23,20264.59
5455.48,20397.87
5457.73,20354.39
5459.98,20373.69
5462.23,20234.74
5464.48,20116.69
5466.73,20263.49
5468.98,20211.12
5471.23,20142.79
5473.49,20169.36
5475.74,20181.31
5477.99,20166.43
5480.24,20219
5482.49,20220.49
5484.74,20061.77
5486.99,19987.88
5489.24,19967.41
5491.49,19949.4
5493.74,19941.32
5495.99,19926.65
5498.24,19915.39
5500.49,19862.22
5502.74,19789.48
5504.99,19843.04
5507.24,19853.14
5509.5,19848.34
5511.75,19901.19
5514,19867.61
5516.25,19895.79
5518.5,19969.98
5520.75,19939.98
5523,19844.41
5525.25,19949.75
5527.5,20076.11
5529.75,20049.72
5532,20197.88
5534.25,20219.23
5536.5,20155.19
5538.75,20263.69
5541,20422.6
5543.25,20380.02
5545.51,20370.96
5547.76,20602.7
5550.01,20663.93
5552.26,20732.79
5554.51,20849.5
5556.76,20964.06
5559.01,21217.55
5561.26,21424.51
5563.51,21541.01
5565.76,21680.25
5568.01,21941.04
5570.26,22201.81
5572.51,22509.21
5574.76,22881.2
5577.01,23074.52
5579.26,23405.55
5581.52,23797.08
5583.77,24084.32
5586.02,24557.81
5588.27,24981.34
5590.52,25380.63
5592.77,25913.84
5595.02,26412.2
5597.27,27059.92
5599.52,27772.3
5601.77,28316.38
5604.02,28808.85
5606.27,29506.84
5608.52,30100.02
5610.77,30410.12
5613.02,31089.18
5615.27,31752.1
5617.52,32191.57
5619.78,32483.32
5622.03,32566.12
5624.28,32664.91
5626.53,32860.8
5628.78,32973.18
5631.03,32721.11
5633.28,32462.01
5635.53,32389.63
5637.78,32239.88
5640.03,31726.7
5642.28,31336.57
5644.53,31035.22
5646.78,30451.53
5649.03,29948.22
5651.28,29444.23
5653.53,28955.91
5655.79,28624.34
5658.04,28222.68
5660.29,27723.65
5662.54,27230.8
5664.79,26766.76
5667.04,26234.76
5669.29,25779.26
5671.54,25439.25
5673.79,25108.94
5676.04,24818.38
5678.29,24618.78
5680.54,24420.58
5682.79,24149.05
5685.04,23985.42
5687.29,23882.63
5689.54,23721.02
5691.8,23528.32
5694.05,23533.66
5696.3,23355.08
5698.55,23042.23
5700.8,23017.4
5703.05,22848.38
5705.3,22614.52
5707.55,22415.39
5709.8,22128
5712.05,21862.67
5714.3,21680.44
5716.55,21586.42
5718.8,21533.09
5721.05,21384.46
5723.3,21154.98
5725.55,20977.01
5727.81,20932.8
5730.06,20786.02
5732.31,20624.14
5734.56,20596.79
5736.81,20546.66
5739.06,20409.38
5741.31,20419.46
5743.56,19822.57
5745.81,18205.04
5748.06,18494.62
5750.31,18386.51
5752.56,18299.5
5754.81,18633.5
5757.06,19014.21
5759.31,19370.56
5761.56,19493.31
5763.82,19566.31
5766.07,19708.72
5768.32,19835.57
5770.57,19988.88
5772.82,20279
5775.07,20539.9
5777.32,20810.47
5779.57,21190.04
5781.82,21525.75
5784.07,21843.67
5786.32,22160.51
5788.57,22471.78
5790.82,22861.15
5793.07,23165.41
5795.32,23328.82
5797.57,23370.71
5799.83,23207.36
5802.08,22820.84
5804.33,22436.45
5806.58,22192.4
5808.83,21733.41
5811.08,21297.83
5813.33,21078.07
5815.58,20935.94
5817.83,20675.64
5820.08,20408.36
5822.33,20185.91
5824.58,19959.14
5826.83,19833.52
5829.08,19697.96
5831.33,19505.34
5833.58,19357.28
5835.84,19271.88
5838.09,19137.81
5840.34,18938.63
5842.59,18793.99
5844.84,18740.94
5847.09,18658.88
5849.34,18513.51
5851.59,18417.41
5853.84,18309.53
5856.09,18217.63
5858.34,18157.28
5860.59,18071.29
5862.84,17973.97
5865.09,17943.9
5867.34,17936.86
5869.59,17795.02
5871.84,17735.3
5874.1,17692.68
5876.35,17590.91
5878.6,17600.27
5880.85,17625.12
5883.1,17517.91
5885.35,17311.77
5887.6,17228.83
5889.85,17139.93
5892.1,17052.51
5894.35,17073.76
5896.6,17137.38
5898.85,17204.31
5901.1,17240.64
5903.35,17229.29
5905.6,17127.77
5907.85,17105.84
5910.11,17157.65
5912.36,17151.24
5914.61,17258.54
5916.86,17304.79
5919.11,17198.59
5921.36,17101.85
5923.61,17160.78
5925.86,17170.99
5928.11,17104.3
5930.36,17193.43
5932.61,17235.57
5934.86,17223.47
5937.11,17218.45
5939.36,17207.03
5941.61,17185.08
5943.86,17222.88
5946.12,17334.82
5948.37,17395.24
5950.62,17468.09
5952.87,17513.17
5955.12,17520.96
5957.37,17627.38
5959.62,17722.41
5961.87,17854.58
5964.12,18038.45
5966.37,18091.41
5968.62,18250.1
5970.87,18438.37
5973.12,18494.46
5975.37,18657.44
5977.62,18785.89
5979.87,18837.97
5982.13,18904.33
5984.38,18906.1
5986.63,18925.47
5988.88,18923.86
5991.13,18840.64
5993.38,18936.21
5995.63,18931.75
5997.88,18746.1
6000.13,18689.03
6002.38,18709.44
6004.63,18691.72
6006.88,18612.75
6009.13,18519.56
6011.38,18449.65
6013.63,18370.24
6015.88,18287.97
6018.14,18244.94
6020.39,18162.51
6022.64,18021.34
6024.89,17886.25
6027.14,17849.53
6029.39,17839.5
6031.64,17839.79
6033.89,17830.97
6036.14,17741.73
6038.39,17686.82
6040.64,17665.53
6042.89,17627.83
6045.14,17632.57
6047.39,17650.81
6049.64,17640.27
6051.89,17610.39
6054.15,17652.66
6056.4,17722.42
6058.65,17730.47
6060.9,17649.65
6063.15,17633.87
6065.4,17670.3
6067.65,17711.54
6069.9,17736.74
6072.15,17668.13
6074.4,17665.94
6076.65,17743.61
6078.9,17696.14
6081.15,17733.53
6083.4,17846.76
6085.65,17904.58
6087.9,17898.84
6090.15,17870.05
6092.41,17826.44
6094.66,17793.08
6096.91,17851.25
6099.16,17870.9
6101.41,17893.5
6103.66,18008.8
6105.91,18044.81
6108.16,17997.31
6110.41,17960.18
6112.66,17965.09
6114.91,17867.88
6117.16,17749.31
6119.41,17722.14
6121.66,17764.69
6123.91,17626.02
6126.16,17556.04
6128.42,17617.07
6130.67,17477.84
6132.92,17463.51
6135.17,17542.7
6137.42,17538.67
6139.67,17527.27
6141.92,17606.09
6144.17,17695.01
6146.42,17667.49
6148.67,17546.43
6150.92,17630.5
6153.17,17741.76
6155.42,17618.71
6157.67,17655.04
6159.92,17682.35
6162.17,17559.63
6164.43,17418.83
6166.68,17395.15
6168.93,17355.7
6171.18,17249.96
6173.43,17186.59
6175.68,17094.19
6177.93,16960.17
6180.18,16817.16
6182.43,16697.24
6184.68,16712.85
6186.93,16743.38
6189.18,16646.14
6191.43,16494.74
6193.68,16426.53
6195.93,16359.97
6198.18,16262.61
6200.44,16316.7
6202.69,16286.04
6204.94,16157
6207.19,16096.08
6209.44,16082.63
6211.69,16031.89
6213.94,15966.23
6216.19,15942.18
6218.44,15899.14
6220.69,15828.82
6222.94,15744.53
6225.19,15657.56
6227.44,15609.88
6229.69,15581.94
6231.94,15502.94
6234.19,15370.56
6236.45,15310.3
6238.7,15309.43
6240.95,15276.16
6243.2,15166.62
6245.45,15156.62
6247.7,15147.91
6249.95,15026.26
6252.2,15049.68
6254.45,15058.97
6256.7,15022.76
6258.95,15048.21
6261.2,15054.7
6263.45,15036.75
6265.7,15003.98
6267.95,14951.08
6270.2,14887.44
6272.46,14801.08
6274.71,14691.25
6276.96,14600.53
6279.21,14654.74
6281.46,14700.03
6283.71,14626.44
6285.96,14625.11
6288.21,14698.97
6290.46,14735.17
6292.71,14683.25
6294.96,14645.64
6297.21,14552.69
6299.46,14537.45
6301.71,14687.71
6303.96,14590.49
6306.21,14529.38
6308.47,14593.01
6310.72,14540.61
6312.97,14548.96
6315.22,14469.86
6317.47,14362.88
6319.72,14516.57
6321.97,14507.64
6324.22,14385.2
6326.47,14347.66
6328.72,14325
6330.97,14263.38
6333.22,14247.77
6335.47,14323.17
6337.72,14325.78
6339.97,14264.48
6342.22,14231.72
6344.47,14273.56
6346.73,14285.49
6348.98,14277.81
6351.23,14272.87
6353.48,14270.17
6355.73,14368.76
6357.98,14366.85
6360.23,14220.13
6362.48,14208.23
6364.73,14299.07
6366.98,14310.87
6369.23,14232.89
6371.48,14294.21
6373.73,14361.5
6375.98,14355.88
6378.23,14332.47
6380.48,14341.1
6382.74,14386.75
6384.99,14410.02
6387.24,14377.76
6389.49,14400.77
6391.74,14379.08
6393.99,14330.33
6396.24,14394.69
6398.49,14402.75
6400.74,14425.69
6402.99,14507.83
6405.24,14499.86
6407.49,14443.64
6409.74,14409.71
6411.99,14422.91
6414.24,14420.56
6416.49,14400.08
6418.75,14381.42
6421,14365.9
6423.25,14349.5
6425.5,14287.45
6427.75,14255.85
6430,14305.76
6432.25,14201.37
6434.5,14052.98
6436.75,14035.52
6439,14144.51
6441.25,14125.77
6443.5,14071.48
6445.75,14089.27
6448,14013.39
6450.25,13950.2
6452.5,13901.5
6454.76,13839.56
6457.01,13867.36
6459.26,13874.8
6461.51,13813.72
6463.76,13742
6466.01,13663.59
6468.26,13658.14
6470.51,13686.03
6472.76,13620.06
6475.01,13603.28
6477.26,13642.68
6479.51,13644.67
6481.76,13558.32
6484.01,13522.1
6486.26,13525.23
6488.51,13501.28
6490.77,13500.78
6493.02,13439.99
6495.27,13410.32
6497.52,13528.49
6499.77,13585.81
6502.02,13554.59
6504.27,13475.66
6506.52,13394.21
6508.77,13392.1
6511.02,13384.61
6513.27,13340.31
6515.52,13374.19
6517.77,13425.17
6520.02,13420.55
6522.27,13392.93
6524.52,13463.56
6526.78,13469.86
6529.03,13428.02
6531.28,13450.44
6533.53,13430.15
6535.78,13430.32
6538.03,13420.33
6540.28,13336.66
6542.53,13426.88
6544.78,13478.55
6547.03,13371.79
6549.28,13342.92
6551.53,13393.69
6553.78,13402.95
6556.03,13346.41
6558.28,13376.05
6560.53,13441.63
6562.78,13470.35
6565.04,13444.07
6567.29,13390.12
6569.54,13412.58
6571.79,13473.09
6574.04,13422.93
6576.29,13370.58
6578.54,13388.93
6580.79,13427.1
6583.04,13409.95
6585.29,13367.91
6587.54,13352.65
6589.79,13395.39
6592.04,13458.28
6594.29,13398.02
6596.54,13309.59
6598.79,13348.98
6601.05,13367.22
6603.3,13352.26
6605.55,13339.02
6607.8,13328.41
6610.05,13363.15
6612.3,13400.65
6614.55,13390.16
6616.8,13354.09
6619.05,13296.48
6621.3,13240.71
6623.55,13216.87
6625.8,13221.96
6628.05,13265.69
6630.3,13305.58
6632.55,13279.2
6634.8,13252.09
6637.06,13240.98
6639.31,13244.76
6641.56,13264.23
6643.81,13259.95
6646.06,13218.55
6648.31,13202.07
6650.56,13300.29
6652.81,13366.83
6655.06,13375.56
6657.31,13365.08
6659.56,13293.56
6661.81,13241.07
6664.06,13226.04
6666.31,13223.84
6668.56,13263.4
6670.81,13270
6673.07,13234.53
6675.32,13234.96
6677.57,13321.31
6679.82,13338.63
6682.07,13246.11
6684.32,13241.46
6686.57,13200.27
6688.82,13166.7
6691.07,13227.54
6693.32,13260.23
6695.57,13252.03
6697.82,13230.3
6700.07,13238.88
6702.32,13282.68
6704.57,13239.41
6706.82,13153.96
6709.08,13195.3
6711.33,13210.95
6713.58,13181.1
6715.83,13175.85
6718.08,13233.63
6720.33,13270.27
6722.58,13259.83
6724.83,13264.97
6727.08,13341.48
6729.33,13369.41
6731.58,13342.25
6733.83,13346.28
6736.08,13263.6
6738.33,13244.38
6740.58,13333.46
6742.83,13317.69
6745.09,13351.32
6747.34,13427.52
6749.59,13468.52
6751.84,13548.91
6754.09,13580.16
6756.34,13551.13
6758.59,13521.81
6760.84,13527.35
6763.09,13610.11
6765.34,13650.24
6767.59,13545.18
6769.84,13631.56
6772.09,13757.38
6774.34,13744.04
6776.59,13820.19
6778.84,13932.35
6781.1,14011.27
6783.35,14038.88
6785.6,14021
6787.85,14054.24
6790.1,14152.22
6792.35,14229
6794.6,14207.12
6796.85,14279.68
6799.1,14478.97
6801.35,14529.76
6803.6,14546.71
6805.85,14547.11
6808.1,14488.79
6810.35,14473.52
6812.6,14460.87
6814.85,14407.72
6817.1,14367.51
6819.36,14470.69
6821.61,14468.05
6823.86,14328.17
6826.11,14340.11
6828.36,14367.21
6830.61,14306.44
6832.86,14187.17
6835.11,14128.36
6837.36,14042.64
6839.61,13915.85
6841.86,13829.37
6844.11,13841.23
6846.36,13830.62
6848.61,13815.8
6850.86,13877.12
6853.11,13687.26
6855.37,13475.52
6857.62,13392.13
6859.87,13096.46
6862.12,12629.62
6864.37,12103.34
6866.62,11636.19
6868.87,11318.98
6871.12,11064.82
6873.37,10998.26
6875.62,11267.3
6877.87,11505.5
6880.12,11671.04
6882.37,11805.96
6884.62,11838.82
6886.87,11800.53
6889.12,11764.96
6891.38,11793.96
6893.63,11893.35
6895.88,11943.1
6898.13,11972.44
6900.38,12071.01
6902.63,12114.61
6904.88,12138.49
6907.13,12181.29
6909.38,12230.72
6911.63,12303.23
6913.88,12425.27
6916.13,12571.39
6918.38,12644.44
6920.63,12713.01
6922.88,12782.62
6925.13,12818.72
6927.39,12865.51
6929.64,12807.16
6931.89,12722.75
6934.14,12817.85
6936.39,12802.84
6938.64,12736.01
6940.89,12782.65
6943.14,12866.52
6945.39,12956.39
6947.64,12982.41
6949.89,12894.04
6952.14,12828.28
6954.39,12800.65
6956.64,12753.02
6958.89,12691.5
6961.14,12689.15
6963.4,12733.21
6965.65,12795.06
6967.9,12888.27
6970.15,12872.01
6972.4,12822.15
6974.65,12823.94
6976.9,12665.52
6979.15,12608.93
6981.4,12676
6983.65,12624.75
6985.9,12610.6
6988.15,12685.52
6990.4,12789.37
6992.65,12827.82
6994.9,12738.38
6997.15,12675.5
6999.41,12742.72
7001.66,12714.93
7003.91,12658.41
7006.16,12629.93
7008.41,12617.36
7010.66,12692.18
7012.91,12774.56
7015.16,12792.79
7017.41,12797.77
7019.66,12798.69
7021.91,12711.25
7024.16,12558.5
7026.41,12582.58
7028.66,12672.48
7030.91,12689.82
7033.16,12656.92
7035.41,12694.2
7037.67,12694.02
7039.92,12672.42
7042.17,12803.17
7044.42,12787.56
7046.67,12638.35
7048.92,12550.65
7051.17,12536.83
7053.42,12484.02
7055.67,12466.96
7057.92,12599.31
7060.17,12643.31
7062.42,12646.65
7064.67,12688.38
7066.92,12726.72
7069.17,12825.56
7071.42,12789.66
7073.68,12581.57
7075.93,12605.62
7078.18,12587.68
7080.43,12452.02
7082.68,12449.5
7084.93,12633.17
7087.18,12763.42
7089.43,12756.87
7091.68,12798.34
7093.93,12759.78
7096.18,12752.28
7098.43,12838.56
7100.68,12769.64
7102.93,12712.85
7105.18,12722.36
7107.43,12708.57
7109.69,12721.5
7111.94,12723.52
7114.19,12768.24
7116.44,12918.8
7118.69,12895.84
7120.94,12913.13
7123.19,13089.91
7125.44,12939.29
7127.69,12782.14
7129.94,12748.13
7132.19,12664.66
7134.44,12571.84
7136.69,12564.9
7138.94,12601.67
7141.19,12562
7143.44,12603.78
7145.7,12643.24
7147.95,12598.91
7150.2,12635.28
7152.45,12603.28
7154.7,12518.09
7156.95,12490.36
7159.2,12403.05
7161.45,12252.78
7163.7,12139.24
7165.95,12152.45
7168.2,12133.82
7170.45,12131.65
7172.7,12197.23
7174.95,12156.59
7177.2,12100.3
7179.45,12101.27
7181.71,12110.42
7183.96,12079.12
7186.21,12014.17
7188.46,11945.74
7190.71,11904.97
7192.96,11913.74
7195.21,12008.65
7197.46,12150.85
7199.71,12207.2
7201.96,12303.42
7204.21,12468.64
7206.46,12631.21
7208.71,12818.58
7210.96,12929.22
7213.21,12926.54
7215.46,12904.72
7217.72,12891.25
7219.97,12824.6
7222.22,12721.58
7224.47,12805.68
7226.72,12915.97
7228.97,12930.71
7231.22,12935.42
7233.47,12941.45
7235.72,12927.28
7237.97,12850.71
7240.22,12696.03
7242.47,12631.21
7244.72,12587.83
7246.97,12463.71
7249.22,12455.38
7251.47,12442.01
7253.73,12409.93
7255.98,12513.24
7258.23,12604.64
7260.48,12629.71
7262.73,12634.71
7264.98,12638.9
7267.23,12581.17
7269.48,12490.86
7271.73,12405.63
7273.98,12227.93
7276.23,12131.4
7278.48,12181.94
7280.73,12243.63
7282.98,12341.64
7285.23,12480.88
7287.48,12603.59
7289.73,12637.95
7291.99,12682.76
7294.24,12750.65
7296.49,12783.71
7298.74,12785.44
7300.99,12754.45
7303.24,12691.96
7305.49,12618.68
7307.74,12610.49
7309.99,12649.68
7312.24,12722.11
7314.49,12885.51
7316.74,12985.71
7318.99,13061.91
7321.24,13212.35
7323.49,13191.78
7325.74,13097.89
7328,13080.4
7330.25,13097.48
7332.5,13054.44
7334.75,13004.07
7337,13013.22
7339.25,13013.62
7341.5,13111.75
7343.75,13265.89
7346,13322.81
7348.25,13376.15
7350.5,13373.24
7352.75,13313.7
7355,13316.25
7357.25,13278.21
7359.5,13189.9
7361.75,13130.34
7364.01,13091.38
7366.26,13141.68
7368.51,13254.39
7370.76,13317.54
7373.01,13420.81
7375.26,13591.77
7377.51,13674.72
7379.76,13425.49
7382.01,13493.24
7384.26,13628
7386.51,13264.64
7388.76,13203.7
7391.01,13255.62
7393.26,13202.5
7395.51,13241.98
7397.76,13262.47
7400.02,13404.7
7402.27,13692.67
7404.52,13722.06
7406.77,13656.11
7409.02,13689.16
7411.27,13743.79
7413.52,13535.39
7415.77,13386.92
7418.02,13465.28
7420.27,13447.75
7422.52,13385.73
7424.77,13441.74
7427.02,13656.19
7429.27,13860.82
7431.52,14025.69
7433.77,14121.89
7436.03,14086.29
7438.28,14082.27
7440.53,14167.22
7442.78,14228.57
7445.03,14140.17
7447.28,14050.39
7449.53,14049.59
7451.78,14131.19
7454.03,14301.23
7456.28,14482.57
7458.53,14626.65
7460.78,14791.21
7463.03,15018.61
7465.28,15182.89
7467.53,15235.61
7469.78,15303.98
7472.04,15264.41
7474.29,15176.25
7476.54,15181
7478.79,15198.54
7481.04,15273.45
7483.29,15450.13
7485.54,15689.32
7487.79,15992.34
7490.04,16298.92
7492.29,16533.09
7494.54,16680.43
7496.79,16700.74
7499.04,16683.73
7501.29,16764.77
7503.54,16819.13
7505.79,16841.6
7508.05,16993.22
7510.3,17398.45
7512.55,17752.79
7514.8,18152.74
7517.05,18771
7519.3,19207.36
7521.55,19538.26
7523.8,19919.01
7526.05,20302.22
7528.3,20660.06
7530.55,20948.93
7532.8,21200.34
7535.05,21582.53
7537.3,22152.98
7539.55,22858.46
7541.8,23670.25
7544.05,24693.14
7546.31,25851.9
7548.56,27017.34
7550.81,28156.77
7553.06,29225.5
7555.31,30162.12
7557.56,31038.58
7559.81,32092.4
7562.06,33203.68
7564.31,34393.94
7566.56,35899.88
7568.81,37651.47
7571.06,39475.72
7573.31,41314.62
7575.56,43091.93
7577.81,44479.62
7580.06,45335.48
7582.32,45729
7584.57,45725.5
7586.82,45053.36
7589.07,43775.47
7591.32,42086.43
7593.57,38623.63
7595.82,33823.37
7598.07,29196.03
7600.32,25557.61
7602.57,23324.69
7604.82,22631.12
7607.07,23348.01
7609.32,24957.27
7611.57,27308.15
7613.82,29844.64
7616.07,31346.66
7618.33,31849.9
7620.58,31230.66
7622.83,29462.44
7625.08,27578.93
7627.33,26007.45
7629.58,24851.59
7631.83,24129.44
7634.08,23735.8
7636.33,23467.35
7638.58,23193.24
7640.83,22983.07
7643.08,22708.48
7645.33,22353.59
7647.58,22032.63
7649.83,21747.84
7652.08,21512.35
7654.34,21348.53
7656.59,21248.02
7658.84,21212.66
7661.09,21263.64
7663.34,21392.54
7665.59,21539.02
7667.84,21568.96
7670.09,21420.99
7672.34,21171.44
7674.59,20878.96
7676.84,20430.5
7679.09,19861.25
7681.34,19471.39
7683.59,19142.54
7685.84,18776.79
7688.09,18490.04
7690.35,18484.07
7692.6,18475.96
7694.85,18380.78
7697.1,18490.53
7699.35,18377.06
7701.6,18003.05
7703.85,17649.3
7706.1,17293.12
7708.35,16860.19
7710.6,16373.17
7712.85,15919.16
7715.1,15628.9
7717.35,15533.5
7719.6,15544.34
7721.85,15517.51
7724.1,15489.33
7726.36,15516.26
7728.61,15571.12
7730.86,15520.24
7733.11,15291.44
7735.36,14966.81
7737.61,14692.8
7739.86,14319.65
7742.11,14006.98
7744.36,13906.32
7746.61,13745.54
7748.86,13661.91
7751.11,13720.4
7753.36,13808.5
7755.61,13921.81
7757.86,13982.78
7760.11,13965.37
7762.36,13925.67
7764.62,13758.87
7766.87,13526.79
7769.12,13369.72
7771.37,13162.04
7773.62,12938.79
7775.87,12794.19
7778.12,12745.6
7780.37,12790.78
7782.62,12905.25
7784.87,13043.43
7787.12,13154.58
7789.37,13241.95
7791.62,13268.48
7793.87,13176.85
7796.12,13028.85
7798.37,12855.21
7800.63,12615.04
7802.88,12267.18
7805.13,11995.95
7807.38,11877.74
7809.63,11856.01
7811.88,11951.19
7814.13,12095.25
7816.38,12205.44
7818.63,12288.57
7820.88,12409.81
7823.13,12479.36
7825.38,12361.11
7827.63,12143.71
7829.88,11929.08
7832.13,11733.66
7834.38,11517.72
7836.64,11386.61
7838.89,11290.69
7841.14,11238.08
7843.39,11376.21
7845.64,11501.31
7847.89,11576.58
7850.14,11707.16
7852.39,11888.84
7854.64,11995.85
7856.89,11927.53
7859.14,11773.36
7861.39,11619.75
7863.64,11429.26
7865.89,11181.7
7868.14,10980.31
7870.39,10832.33
7872.65,10787.88
7874.9,10947.45
7877.15,11187.14
7879.4,11374.56
7881.65,11469.06
7883.9,11569.74
7886.15,11552.66
7888.4,11389.26
7890.65,11248.86
7892.9,11096.12
7895.15,10890.14
7897.4,10658.95
7899.65,10484.66
7901.9,10425.85
7904.15,10526.47
7906.4,10768.63
7908.66,11007.48
7910.91,11218.09
7913.16,11350.87
7915.41,11334.56
7917.66,11330.35
7919.91,11221.69
7922.16,10909.74
7924.41,10677.68
7926.66,10544.9
7928.91,10454.97
7931.16,10432.92
7933.41,10588.37
7935.66,10812.58
7937.91,11028.54
7940.16,11317.46
7942.41,11344.84
7944.67,11139.57
7946.92,10987.97
7949.17,10687.34
7951.42,10322.76
7953.67,10122.98
7955.92,10189.32
7958.17,10418.24
7960.42,10665.97
7962.67,10835.81
7964.92,10857.03
7967.17,10602.44
7969.42,10198.4
7971.67,10023.98
7973.92,10091.78
7976.17,10332.31
7978.42,10551.08
7980.68,10382.34
7982.93,10019.44
7985.18,9944.041
7987.43,10316.98
7989.68,10301.45
7991.93,9993.048
7994.18,9901.869